Folder: Concrete_research/Data

File: clean_data.csv
Cement (component 1)(kg in a m^3 mixture),Blast Furnace Slag (component 2)(kg in a m^3 mixture),Fly Ash (component 3)(kg in a m^3 mixture),Water  (component 4)(kg in a m^3 mixture),Superplasticizer (component 5)(kg in a m^3 mixture),Coarse Aggregate  (component 6)(kg in a m^3 mixture),Fine Aggregate (component 7)(kg in a m^3 mixture),Age (day),"Concrete compressive strength(MPa, megapascals) ",water_cement_ratio
540.0,0.0,0.0,162.0,2.5,1055.0,676.0,28,61.8874,0.3
198.6,132.4,0.0,192.0,0.0,978.4,825.5,28,28.0217,0.966767
139.6,209.4,0.0,192.0,0.0,1047.0,806.9,28,28.2375,1.37536
475.0,0.0,0.0,228.0,0.0,932.0,594.0,90,42.229,0.48
380.0,95.0,0.0,228.0,0.0,932.0,594.0,7,32.8232,0.6
332.5,142.5,0.0,228.0,0.0,932.0,594.0,28,33.019,0.685714
313.3,262.2,0.0,175.5,8.6,1046.9,611.8,3,28.7994,0.560166
401.8,94.7,0.0,147.4,11.4,946.8,852.1,3,41.0997,0.366849
389.9,189.0,0.0,145.9,22.0,944.7,755.8,3,40.5963,0.374199
475.0,118.8,0.0,181.1,8.9,852.1,781.5,7,55.5993,0.381263
379.5,151.2,0.0,153.9,15.9,1134.3,605.0,7,47.0981,0.405534
374.0,189.2,0.0,170.1,10.1,926.1,756.7,28,61.0945,0.454813
318.8,212.5,0.0,155.7,14.3,852.1,880.4,28,55.4959,0.488394
439.0,177.0,0.0,186.0,11.1,884.9,707.9,28,65.9966,0.42369
425.0,106.3,0.0,151.4,18.6,936.0,803.7,56,64.9004,0.356235
286.3,200.9,0.0,144.7,11.2,1004.6,803.7,56,72.9948,0.505414
425.0,106.3,0.0,151.4,18.6,936.0,803.7,91,66.6999,0.356235
286.3,200.9,0.0,144.7,11.2,1004.6,803.7,91,76.8007,0.505414
222.36,0.0,96.67,189.29,4.46,967.08,870.32,56,29.4475,0.851277
233.81,0.0,94.58,197.89,4.567,947.04,852.16,100,34.5565,0.846371
190.68,0.0,125.4,162.14,7.77,1090.0,804.01,3,15.0444,0.850325
212.07,0.0,121.62,180.31,5.69,1057.6,779.32,14,20.9187,0.850238
229.97,0.0,118.31,195.47,4.63,1029.4,758.59,28,24.4833,0.84998
190.34,0.0,125.18,161.85,9.88,1088.1,802.59,56,38.5624,0.85032
166.09,0.0,163.27,176.46,4.49,1058.6,780.09,100,33.543,1.06244
213.76,98.06,24.52,181.74,6.65,1066.0,785.52,3,13.1828,0.850206
229.68,0.0,118.16,195.23,6.13,1028.1,757.63,14,22.3183,0.850009
238.05,0.0,94.11,186.66,7.0,949.91,847.01,28,30.2335,0.784121
250.0,0.0,95.69,187.42,5.53,956.86,861.17,56,38.328,0.74968
212.52,0.0,100.37,159.32,8.71,1007.8,903.59,100,42.9199,0.749671
212.0,0.0,124.78,159.0,7.84,1085.4,799.54,3,19.5191,0.75
231.75,0.0,121.62,173.96,6.72,1056.4,778.45,14,26.7724,0.750636
251.37,0.0,118.27,188.45,5.75,1028.4,757.73,28,29.6544,0.749692
251.37,0.0,118.27,188.45,6.35,1028.4,757.73,56,36.6388,0.749692
181.38,0.0,167.01,169.59,7.56,1055.6,777.8,100,45.3675,0.934998
168.88,42.22,124.25,158.33,10.83,1080.8,796.15,3,7.39808,0.93753
290.35,0.0,96.18,168.08,9.41,961.18,865.0,14,34.6737,0.578888
277.05,0.0,97.39,160.6,11.83,973.9,875.61,28,48.284,0.579679
295.71,0.0,95.64,171.54,8.87,955.14,859.2,56,48.7184,0.580095
251.81,0.0,99.94,146.14,12.35,1006.0,899.76,100,45.3675,0.580358
252.31,0.0,98.75,146.25,14.17,987.76,889.01,3,21.7805,0.579644
246.83,0.0,125.08,143.3,11.99,1086.8,800.89,14,42.2166,0.580562
275.07,0.0,121.35,159.48,9.9,1053.6,777.5,28,51.3315,0.57978
297.16,0.0,117.54,174.8,9.52,1022.8,753.45,56,51.9589,0.588235
213.74,0.0,174.74,154.79,10.16,1053.5,776.35,100,50.0766,0.724198
277.19,97.82,24.46,160.7,11.19,1061.7,782.46,3,30.4473,0.579747
218.23,54.64,123.78,140.75,11.91,1075.7,792.67,14,35.9562,0.644962
214.9,53.8,121.89,155.63,9.61,1014.3,780.58,28,52.2002,0.724197
218.85,0.0,124.13,158.49,11.33,1078.7,794.91,56,37.2662,0.724195
376.0,0.0,0.0,214.6,0.0,1003.5,762.36,100,43.0578,0.570745
528.0,0.0,0.0,185.0,6.86,920.0,720.0,28,56.8335,0.350379
333.0,17.5,163.0,167.0,17.9,996.0,652.0,28,47.2774,0.501502
160.0,128.0,122.0,182.0,6.4,824.0,879.0,28,39.3967,1.1375
275.0,180.0,120.0,162.0,10.35,830.0,765.0,28,76.2354,0.589091
172.38,13.61,172.37,156.76,4.14,1006.3,856.4,3,21.291,0.909386
213.5,0.0,174.24,159.21,11.66,1043.6,771.9,3,15.6097,0.745714
167.35,129.9,128.62,175.46,7.79,1006.3,746.6,14,31.8124,1.04846
250.0,0.0,95.69,191.84,5.33,948.9,857.2,14,24.6557,0.76736
178.03,129.8,118.6,179.94,3.57,1007.3,746.8,28,39.1622,1.01073
190.34,0.0,125.18,166.61,9.88,1079.0,798.9,28,24.8487,0.875328
165.0,128.5,132.1,175.06,8.08,1005.8,746.6,56,53.724,1.06097
173.81,93.37,159.9,172.34,9.73,1007.2,746.6,56,48.9873,0.991542
165.0,0.02,143.57,163.81,0.0,1005.6,900.9,100,37.9557,0.992788
167.0,75.4,167.0,164.03,7.91,1007.3,770.1,100,56.8128,0.982216
251.37,0.0,118.27,192.94,5.75,1043.6,754.3,100,40.1482,0.767554
446.0,24.0,79.0,162.0,11.64,967.0,712.0,3,25.0211,0.363229
446.0,24.0,79.0,162.0,11.64,967.0,712.0,56,56.144,0.363229
387.0,20.0,94.0,157.0,14.32,938.0,845.0,3,22.7527,0.405685
387.0,20.0,94.0,157.0,14.32,938.0,845.0,56,56.3371,0.405685
491.0,26.0,123.0,201.0,3.93,822.0,699.0,28,57.916,0.409369
491.0,26.0,123.0,201.0,3.93,822.0,699.0,56,61.8558,0.409369
424.0,22.0,132.0,168.0,8.92,822.0,750.0,3,32.1099,0.396226
202.0,11.0,141.0,206.0,1.72,942.0,801.0,56,23.2452,1.0198
359.0,19.0,141.0,154.0,10.91,942.0,801.0,28,59.4949,0.428969
359.0,19.0,141.0,154.0,10.91,942.0,801.0,56,66.7807,0.428969
393.0,0.0,0.0,192.0,0.0,940.6,785.6,28,39.6049,0.48855
255.0,0.0,0.0,192.0,0.0,889.8,945.0,90,21.8591,0.752941
289.0,0.0,0.0,192.0,0.0,913.2,895.3,28,25.5734,0.66436
181.9,272.8,0.0,185.7,0.0,1012.4,714.3,28,27.9355,1.02089
382.5,0.0,0.0,185.7,0.0,1047.8,739.3,7,24.0655,0.48549
397.0,0.0,0.0,185.7,0.0,1040.6,734.3,7,25.4479,0.467758
135.7,203.5,0.0,185.7,0.0,1076.2,759.3,7,7.50701,1.36846
290.2,193.5,0.0,185.7,0.0,998.2,704.3,7,21.8591,0.639904
381.4,0.0,0.0,185.7,0.0,1104.6,784.3,7,14.541,0.48689
382.5,0.0,0.0,185.7,0.0,1047.8,739.3,28,37.4379,0.48549
339.0,0.0,0.0,197.0,0.0,968.0,781.0,3,13.2241,0.581121
236.0,0.0,0.0,194.0,0.0,968.0,885.0,14,12.838,0.822034
277.0,0.0,0.0,191.0,0.0,968.0,856.0,90,31.2539,0.689531
236.0,0.0,0.0,193.0,0.0,968.0,885.0,7,9.99051,0.817797
325.0,0.0,0.0,184.0,0.0,1063.0,783.0,28,30.5714,0.566154
375.0,0.0,0.0,186.0,0.0,1038.0,758.0,28,38.2108,0.496
350.0,0.0,0.0,186.0,0.0,1050.0,770.0,28,34.2945,0.531429
122.6,183.9,0.0,203.5,0.0,958.2,800.1,90,33.1921,1.65987
200.0,133.0,0.0,192.0,0.0,965.4,806.2,3,11.4143,0.96
157.0,236.0,0.0,192.0,0.0,935.4,781.2,28,33.6644,1.22293
153.0,102.0,0.0,192.0,0.0,888.0,943.1,3,4.78221,1.2549
236.0,157.0,0.0,192.0,0.0,972.6,749.1,3,13.5654,0.813559
102.0,153.0,0.0,192.0,0.0,887.0,942.0,28,17.2755,1.88235
305.3,203.5,0.0,203.5,0.0,965.4,631.0,3,14.1439,0.666557
212.0,141.3,0.0,203.5,0.0,973.4,750.0,90,39.7,0.959906
203.5,305.3,0.0,203.5,0.0,963.4,630.0,28,41.6843,1.0
250.2,166.8,0.0,203.5,0.0,977.6,694.1,3,9.73126,0.813349
250.2,166.8,0.0,203.5,0.0,977.6,694.1,28,36.9642,0.813349
116.0,173.0,0.0,192.0,0.0,909.8,891.9,7,10.0898,1.65517
310.0,0.0,0.0,192.0,0.0,1012.0,830.0,7,17.2438,0.619355
331.0,0.0,0.0,192.0,0.0,1025.0,821.0,28,31.7435,0.58006
349.0,0.0,0.0,192.0,0.0,1056.0,809.0,90,40.6584,0.550143
297.0,0.0,0.0,186.0,0.0,1040.0,734.0,7,30.9575,0.626263
500.0,0.0,0.0,200.0,0.0,1125.0,613.0,1,12.6381,0.4
540.0,0.0,0.0,173.0,0.0,1125.0,613.0,14,59.7638,0.32037
350.0,0.0,0.0,203.0,0.0,974.0,775.0,56,29.9784,0.58
385.0,0.0,0.0,186.0,0.0,966.0,763.0,28,31.3505,0.483117
281.0,0.0,0.0,186.0,0.0,1104.0,774.0,28,22.4355,0.661922
296.0,0.0,0.0,192.0,0.0,1085.0,765.0,7,14.2032,0.648649
331.0,0.0,0.0,192.0,0.0,978.0,825.0,90,37.2317,0.58006
540.0,0.0,0.0,173.0,0.0,1125.0,613.0,3,41.6375,0.32037
393.0,0.0,0.0,192.0,0.0,940.0,758.0,90,48.7942,0.48855
310.0,0.0,0.0,192.0,0.0,970.0,850.0,90,34.6806,0.619355
322.0,0.0,0.0,203.0,0.0,974.0,800.0,14,20.7739,0.630435
522.0,0.0,0.0,146.0,0.0,896.0,896.0,28,74.9874,0.279693
310.0,143.0,111.0,168.0,22.0,914.0,651.0,28,33.6878,0.541935
310.0,143.0,0.0,168.0,10.0,914.0,804.0,28,45.2986,0.541935
366.0,187.0,0.0,191.0,7.0,824.0,757.0,28,65.907,0.521858
298.0,0.0,107.0,186.0,6.0,879.0,815.0,28,42.6372,0.624161
322.0,149.0,0.0,186.0,8.0,951.0,709.0,28,52.4209,0.57764
265.0,111.0,86.0,195.0,6.0,833.0,790.0,28,41.5409,0.735849
159.0,187.0,0.0,176.0,11.0,990.0,789.0,28,32.7639,1.10692
133.0,210.0,0.0,196.0,3.0,949.0,795.0,28,31.0264,1.47368
300.0,0.0,120.0,212.0,10.0,878.0,728.0,28,23.8352,0.706667
158.0,0.0,195.0,220.0,11.0,898.0,713.0,28,8.53571,1.39241
313.0,161.0,0.0,178.0,10.0,917.0,759.0,28,52.4415,0.56869
331.0,170.0,0.0,195.0,8.0,811.0,802.0,28,56.6129,0.589124
146.0,173.0,0.0,182.0,3.0,986.0,817.0,28,23.7387,1.24658
155.0,184.0,143.0,194.0,9.0,880.0,699.0,28,28.9856,1.25161
155.0,0.0,143.0,193.0,9.0,877.0,868.0,28,9.7354,1.24516
157.0,214.0,152.0,200.0,9.0,819.0,704.0,28,33.0535,1.27389
167.0,187.0,195.0,185.0,7.0,898.0,636.0,28,23.8903,1.10778
296.0,0.0,106.7,221.4,10.5,819.2,778.4,28,31.4201,0.747973
149.5,236.0,0.0,175.8,12.6,846.8,892.7,28,32.9638,1.17592
261.9,110.5,86.1,195.4,5.0,895.2,732.6,28,33.7188,0.746086
259.9,100.6,78.4,170.6,10.4,935.7,762.9,28,49.7733,0.656406
143.7,170.2,132.6,191.6,8.5,814.1,805.3,28,29.8709,1.33333
314.0,145.3,113.2,178.9,8.0,869.1,690.2,28,46.2342,0.569745
298.1,0.0,107.5,163.6,12.8,953.2,784.0,28,35.8659,0.548809
312.7,0.0,0.0,178.1,8.0,999.7,822.2,28,25.1038,0.569555
153.6,144.2,112.3,220.1,10.1,923.2,657.9,28,16.504,1.43294
374.3,0.0,0.0,190.2,6.7,1013.2,730.4,28,39.0561,0.508149
141.9,166.6,129.7,173.5,10.9,882.6,785.3,28,44.6119,1.22269
164.6,0.0,150.4,181.6,11.7,1023.3,728.9,28,18.0339,1.10328
325.6,166.4,0.0,174.0,8.9,881.6,790.0,28,61.2358,0.534398
321.4,0.0,127.9,182.5,11.5,870.1,779.7,28,37.2655,0.567828
276.4,116.0,90.3,179.6,8.9,870.1,768.3,28,44.2844,0.649783
260.9,100.5,78.3,200.6,8.6,864.5,761.5,28,32.4012,0.768877